gesture_index,method,target_element,gesture_type,start_x,start_y,end_x,end_y,timestamp_ms,duration_ms,avg_pressure,max_pressure,touch_major,touch_minor,avg_size,max_speed_x,max_speed_y,max_speed,total_distance,max_acceleration,avg_curvature,accel_x,accel_y,accel_z,gyro_x,gyro_y,gyro_z,gravity_x,gravity_y,gravity_z,linear_x,linear_y,linear_z,mag_x,mag_y,mag_z,pointer_count,trajectory_points
50,"test3","",SWIPE,488.74,711.78,362.74,220.78,1784893247670,1024,0.9412,1.0000,0.00,0.00,0.0000,0.00,0.00,0.00,516.55,8642.40,0.00040013,-0.3781,3.5186,9.0556,-0.012370,0.021075,-0.024282,-0.2522,3.4584,9.1767,-0.1259,0.0602,-0.1211,-14.3228,17.2508,-17.9462,1,17
49,"test3","",SWIPE,720.74,713.73,499.74,204.73,1784893245454,1013,0.9412,1.0000,0.00,0.00,0.0000,0.00,0.00,0.00,555.54,4851.20,0.00038026,-0.2411,3.3846,9.2842,-0.032376,-0.007483,-0.016799,-0.2596,3.4459,9.1812,0.0185,-0.0612,0.1029,-13.6884,18.3366,-19.7640,1,17
48,"test3","",SWIPE,506.74,762.73,591.74,265.73,1784893243230,1214,0.9474,1.0000,0.00,0.00,0.0000,0.00,0.00,0.00,513.82,11384.41,0.03247618,-0.2578,3.5515,8.9988,-0.017257,-0.015730,-0.006109,-0.2500,3.5852,9.1280,-0.0078,-0.0336,-0.1292,-14.5912,17.3362,-19.3370,1,19
47,"test3","",SWIPE,447.74,757.73,346.74,266.73,1784893241009,1079,0.9474,1.0000,0.00,0.00,0.0000,0.00,0.00,0.00,515.33,8839.01,0.09640788,-0.1501,3.2177,9.2513,0.012370,0.006872,-0.011912,-0.2352,3.2372,9.2575,0.0850,-0.0195,-0.0062,-13.5298,17.4582,-18.2268,1,19
46,"test3","",SWIPE,578.74,750.73,546.74,228.73,1784893238727,1080,0.9444,1.0000,0.00,0.00,0.0000,0.00,0.00,0.00,522.98,10542.27,0.00006318,-0.1926,3.2273,9.0796,-0.107054,0.013744,-0.019548,-0.1973,3.2595,9.2506,0.0046,-0.0322,-0.1710,-14.8718,17.3362,-18.3244,1,18
45,"test3","",SWIPE,423.74,787.73,298.74,325.73,1784893236623,1023,0.9375,1.0000,0.00,0.00,0.0000,0.00,0.00,0.00,478.62,10527.94,0.00020180,0.0108,3.1555,9.6042,-0.089339,-0.008858,-0.003360,-0.1335,3.3130,9.2327,0.1443,-0.1575,0.3715,-14.5180,17.1776,-17.9828,1,16
44,"test3","",SWIPE,676.74,777.73,481.74,283.73,1784893234516,969,0.9375,1.0000,0.00,0.00,0.0000,0.00,0.00,0.00,531.10,3920.47,0.00001526,-0.1107,3.3272,9.1232,-0.023213,0.000916,0.012675,-0.0757,3.4035,9.2004,-0.0349,-0.0762,-0.0771,-15.2744,17.3606,-18.5318,1,16
43,"test3","",SWIPE,259.74,808.73,699.74,497.73,1784893232721,1078,0.9412,1.0000,0.00,0.00,0.0000,0.00,0.00,0.00,550.83,7007.44,0.00086731,-0.1023,3.3224,9.3230,0.003512,0.002443,-0.008247,-0.0684,3.4242,9.1927,-0.0338,-0.1018,0.1303,-15.9454,16.5310,-19.7030,1,17
42,"test3","",SWIPE,486.74,822.73,276.74,288.73,1784893230377,1147,0.9474,1.0000,0.00,0.00,0.0000,0.00,0.00,0.00,575.56,7288.27,0.02655788,0.1005,3.3314,9.0622,-0.015882,-0.002291,0.002902,-0.0524,3.4342,9.1891,0.1529,-0.1028,-0.1269,-15.1646,17.2874,-19.1418,1,19
41,"test3","",SWIPE,684.74,786.73,457.74,319.73,1784893228218,1012,0.9444,1.0000,0.00,0.00,0.0000,0.00,0.00,0.00,523.16,10181.66,0.03487376,-0.1400,3.4421,9.1801,0.017868,-0.006261,0.002749,-0.0464,3.4314,9.1902,-0.0936,0.0107,-0.0101,-13.9446,17.4094,-17.9950,1,18
40,"test3","",SWIPE,292.74,782.73,710.74,473.73,1784893226283,1092,0.9412,1.0000,0.00,0.00,0.0000,0.00,0.00,0.00,525.08,12290.39,0.30988094,0.1089,3.3314,9.1765,-0.002443,-0.008247,-0.026573,-0.0068,3.4201,9.1945,0.1156,-0.0887,-0.0180,-15.3232,17.3972,-17.9096,1,17
39,"test3","",SWIPE,609.74,759.73,277.74,290.73,1784893224069,1090,0.9474,1.0000,0.00,0.00,0.0000,0.00,0.00,0.00,576.26,10795.23,0.03722783,-0.0682,3.3990,9.2094,0.011454,-0.006109,-0.012065,-0.0309,3.3966,9.2032,-0.0373,0.0024,0.0062,-14.7742,18.1902,-19.2394,1,19
38,"test3","",SWIPE,316.40,792.20,596.40,284.20,1784893221590,1204,0.9474,1.0000,0.00,0.00,0.0000,0.00,0.00,0.00,580.89,9465.21,0.03736889,0.0419,3.3272,9.1669,0.009621,-0.003207,-0.017257,-0.0150,3.4129,9.1972,0.0569,-0.0857,-0.0303,-15.4940,17.2752,-19.1052,1,19
37,"test3","",SWIPE,709.40,811.20,290.40,391.20,1784893219546,1090,0.9444,1.0000,0.00,0.00,0.0000,0.00,0.00,0.00,593.53,11843.28,0.00120908,0.0526,3.3649,9.0622,-0.034972,0.018173,0.005345,-0.0595,3.4231,9.1932,0.1121,-0.0582,-0.1310,-14.2862,17.6412,-18.3488,1,18
36,"test3","",SWIPE,478.40,796.20,628.40,283.20,1784893217338,1069,0.9474,1.0000,0.00,0.00,0.0000,0.00,0.00,0.00,535.23,10995.50,0.00218515,0.0090,3.4415,9.1334,0.037874,-0.006567,0.025198,-0.0143,3.4479,9.1841,0.0233,-0.0064,-0.0507,-14.9084,17.3728,-17.4704,1,19
35,"test3","",SWIPE,631.40,898.20,382.40,300.20,1784893214975,1215,0.9524,1.0000,0.00,0.00,0.0000,0.00,0.00,0.00,648.18,11033.21,0.03292373,-0.1394,3.6233,9.2285,0.046884,0.002138,0.054214,-0.0592,3.4904,9.1679,-0.0801,0.1330,0.0606,-14.6766,17.8486,-17.8486,1,21
34,"test3","",SWIPE,237.40,859.20,527.40,283.20,1784893212389,1205,0.9524,1.0000,0.00,0.00,0.0000,0.00,0.00,0.00,647.10,9431.72,0.31285253,-0.0921,3.4277,9.2046,-0.020769,-0.007789,0.012065,-0.0546,3.5216,9.1560,-0.0375,-0.0938,0.0486,-15.1158,17.1166,-18.4342,1,21
33,"test3","",SWIPE,456.40,857.20,177.40,363.20,1784893210171,1069,0.9444,1.0000,0.00,0.00,0.0000,0.00,0.00,0.00,568.96,7356.42,0.00170272,0.1232,3.3505,9.2100,0.026420,0.001833,-0.001374,-0.0303,3.4750,9.1738,0.1535,-0.1245,0.0361,-14.7498,16.5188,-18.2146,1,18
32,"test3","",SWIPE,733.40,760.20,463.40,237.20,1784893207711,1066,0.9444,1.0000,0.00,0.00,0.0000,0.00,0.00,0.00,588.58,7836.36,0.00002585,0.1436,3.4319,9.0676,-0.018021,0.001527,-0.032681,-0.0254,3.4869,9.1694,0.1690,-0.0550,-0.1017,-14.9450,17.3240,-19.8494,1,18
31,"test3","",SWIPE,517.40,909.20,678.40,316.20,1784893205358,1316,0.9545,1.0000,0.00,0.00,0.0000,0.00,0.00,0.00,615.38,10027.82,0.00318967,0.0305,3.2465,9.4810,0.016493,0.015424,-0.006720,-0.0653,3.4339,9.1891,0.0958,-0.1874,0.2918,-15.1524,16.4334,-19.1540,1,22
30,"test3","",SWIPE,379.40,938.20,484.40,382.20,1784893202939,1204,0.9500,1.0000,0.00,0.00,0.0000,0.00,0.00,0.00,568.63,7504.33,0.05385586,0.0132,3.3840,9.2285,0.006414,0.007483,0.001374,-0.0594,3.4829,9.1707,0.0726,-0.0989,0.0578,-15.6404,16.7262,-19.9958,1,20
29,"test3","",SWIPE,641.40,776.20,146.40,543.20,1784893201026,1012,0.9412,1.0000,0.00,0.00,0.0000,0.00,0.00,0.00,556.39,19863.89,0.00129125,-0.1974,3.3607,9.1514,0.036805,-0.016493,-0.014813,-0.1011,3.4069,9.1988,-0.0963,-0.0462,-0.0475,-15.4818,16.5554,-20.3496,1,17
28,"test3","",SWIPE,707.40,821.20,497.40,251.20,1784893198665,1091,0.9474,1.0000,0.00,0.00,0.0000,0.00,0.00,0.00,607.66,7977.93,0.00045506,-0.1884,3.4277,9.2662,-0.019700,-0.001527,0.003665,-0.0694,3.4483,9.1837,-0.1190,-0.0206,0.0825,-14.7742,16.7018,-18.3732,1,19
27,"test3","",SWIPE,361.40,752.20,776.40,449.20,1784893196562,1023,0.9375,1.0000,0.00,0.00,0.0000,0.00,0.00,0.00,518.36,11988.21,0.00047867,-0.0526,3.4319,9.0431,0.026573,-0.003971,0.018479,-0.0616,3.4823,9.1709,0.0090,-0.0504,-0.1278,-15.7136,16.5798,-20.4228,1,16
26,"test3","",SWIPE,645.40,747.20,451.40,194.20,1784893194097,1148,0.9474,1.0000,0.00,0.00,0.0000,0.00,0.00,0.00,586.12,11092.17,0.00025449,-0.0209,3.3464,9.2524,0.013439,0.016493,0.002443,-0.0739,3.4346,9.1888,0.0529,-0.0882,0.0636,-15.6648,15.5184,-18.0072,1,19
25,"test3","",SWIPE,589.40,731.20,387.40,220.20,1784893191812,1080,0.9474,1.0000,0.00,0.00,0.0000,0.00,0.00,0.00,573.94,10253.67,0.03170962,0.1316,3.2554,9.4241,-0.017562,0.009774,0.019700,-0.0533,3.4527,9.1822,0.1849,-0.1973,0.2420,-16.1162,16.0308,-19.7518,1,19
24,"test3","",SWIPE,276.40,733.20,571.40,297.20,1784893189709,1081,0.9412,1.0000,0.00,0.00,0.0000,0.00,0.00,0.00,526.47,17120.92,0.00023323,-0.0203,3.3703,9.1669,-0.014661,-0.001374,-0.029627,-0.0804,3.4784,9.1723,0.0601,-0.1081,-0.0054,-14.7742,17.2630,-19.1418,1,17
23,"test3","",SWIPE,614.40,832.20,313.40,361.20,1784893187842,955,0.9412,1.0000,0.00,0.00,0.0000,0.00,0.00,0.00,569.15,12996.81,0.00035907,-0.1119,3.3320,9.2046,-0.008705,0.004429,-0.011454,-0.1192,3.4233,9.1926,0.0074,-0.0912,0.0120,-15.1646,17.2142,-18.5806,1,17
22,"test3","",SWIPE,288.38,834.10,669.38,437.10,1784893185668,1204,0.9474,1.0000,0.00,0.00,0.0000,0.00,0.00,0.00,551.15,10635.98,0.04087150,-0.1926,3.2943,9.1609,0.001833,0.008858,0.002596,-0.1282,3.3789,9.2088,-0.0644,-0.0846,-0.0479,-15.0792,17.3240,-19.1296,1,19
21,"test3","",SWIPE,686.66,860.97,275.66,408.97,1784893183625,1145,0.9474,1.0000,0.00,0.00,0.0000,0.00,0.00,0.00,611.22,7975.82,0.00036225,0.0239,3.3601,8.9958,-0.007025,0.077427,0.036194,-0.1538,3.4220,9.1925,0.1777,-0.0618,-0.1967,-15.2500,17.3118,-19.3858,1,19
20,"test3","",SWIPE,733.66,827.97,638.66,301.97,1784893181169,1136,0.9474,1.0000,0.00,0.00,0.0000,0.00,0.00,0.00,539.66,7912.25,0.00002730,-0.1256,3.4229,9.1711,0.002443,-0.001680,0.015272,-0.0901,3.4655,9.1770,-0.0355,-0.0426,-0.0059,-14.8474,18.1170,-20.3252,1,19
19,"test3","",SWIPE,220.66,833.97,679.66,423.97,1784893179059,1214,0.9474,1.0000,0.00,0.00,0.0000,0.00,0.00,0.00,615.48,7957.77,0.00013609,0.0419,3.3416,9.2148,-0.033139,-0.000305,-0.025962,-0.0537,3.4946,9.1663,0.0956,-0.1530,0.0485,-14.8840,17.5192,-18.2512,1,19
18,"test3","",SWIPE,487.66,881.97,185.66,300.97,1784893176524,1260,0.9500,1.0000,0.00,0.00,0.0000,0.00,0.00,0.00,654.92,11283.34,0.00037922,-0.0293,3.4606,9.1334,-0.019090,0.004581,-0.026420,-0.1011,3.5114,9.1595,0.0718,-0.0508,-0.0261,-14.7498,17.3362,-19.2638,1,20
17,"test3","",SWIPE,804.14,996.05,414.66,306.97,1784893173892,1372,0.9583,1.0000,0.00,0.00,0.0000,0.00,0.00,0.00,792.05,30077.97,0.00718142,-0.0766,3.4463,9.0383,0.017257,0.041386,-0.005192,-0.0814,3.5056,9.1619,0.0049,-0.0593,-0.1236,-14.8840,17.0190,-17.7144,1,24
16,"test3","",SWIPE,434.08,865.07,758.08,530.07,1784893171764,1023,0.9412,1.0000,0.00,0.00,0.0000,0.00,0.00,0.00,466.73,9855.25,1.97694778,-0.1346,3.4654,9.0855,-0.002443,0.016188,-0.025656,-0.0932,3.5048,9.1621,-0.0414,-0.0394,-0.0765,-15.6160,16.7262,-19.2394,1,17
15,"test3","",SWIPE,748.08,888.07,419.08,267.07,1784893169064,1396,0.9545,1.0000,0.00,0.00,0.0000,0.00,0.00,0.00,703.31,11051.58,0.00115944,-0.2728,3.5803,9.0281,-0.041386,-0.084147,0.000916,-0.0850,3.5264,9.1539,-0.1878,0.0539,-0.1258,-13.6274,17.7876,-17.4582,1,22
14,"test3","",SWIPE,580.08,843.07,580.08,237.07,1784893166299,1385,0.9545,1.0000,0.00,0.00,0.0000,0.00,0.00,0.00,608.63,10778.25,0.03467591,-0.0347,3.3846,9.1334,-0.024129,0.057116,-0.048411,-0.0982,3.5137,9.1586,0.0635,-0.1291,-0.0252,-15.5550,17.0556,-18.8612,1,22
13,"test3","",SWIPE,310.08,841.07,635.08,301.07,1784893163833,1259,0.9524,1.0000,0.00,0.00,0.0000,0.00,0.00,0.00,633.21,11763.95,0.02178917,-0.3368,3.4277,9.2082,0.045815,0.079565,0.008247,-0.1106,3.5244,9.1544,-0.2262,-0.0967,0.0538,-14.6522,16.8116,-18.1414,1,21
12,"test3","",SWIPE,404.08,913.07,330.08,314.07,1784893161304,1317,0.9524,1.0000,0.00,0.00,0.0000,0.00,0.00,0.00,605.35,10930.54,0.02515615,-0.3129,3.7567,8.5854,-0.071624,-0.069639,-0.011148,-0.0813,3.6649,9.0994,-0.2316,0.0919,-0.5139,-15.9332,14.8840,-21.1792,1,21
11,"test3","",SWIPE,660.33,809.50,427.08,213.07,1784893158356,1439,0.9545,1.0000,0.00,0.00,0.0000,0.00,0.00,0.00,647.68,30852.67,0.00037168,-0.2979,3.6945,8.4473,-0.031307,-0.012828,0.016341,-0.0718,3.7409,9.0684,-0.2261,-0.0464,-0.6212,-15.9454,15.4208,-20.2154,1,22
10,"test3","",SWIPE,158.19,831.49,561.33,303.50,1784893155700,1507,0.9565,1.0000,0.00,0.00,0.0000,0.00,0.00,0.00,677.90,16214.81,0.03408663,-0.0263,3.8177,8.7583,-0.009621,0.018326,-0.003207,-0.0438,3.8057,9.0416,0.0175,0.0120,-0.2833,-15.4452,15.6282,-19.4834,1,23
9,"test3","",SWIPE,359.19,913.49,263.19,396.49,1784893153595,1079,0.9444,1.0000,0.00,0.00,0.0000,0.00,0.00,0.00,525.92,7699.96,0.00061547,0.2255,3.6987,8.9928,-0.000916,0.010385,-0.035583,0.0318,3.8391,9.0275,0.1937,-0.1404,-0.0347,-16.3968,15.0670,-22.2040,1,18
8,"test3","",SWIPE,651.53,973.80,410.19,417.49,1784893151190,1259,0.9474,1.0000,0.00,0.00,0.0000,0.00,0.00,0.00,608.14,36221.09,0.00823824,0.0957,3.7848,9.1729,-0.007178,0.004581,-0.019700,-0.0188,3.9066,8.9986,0.1146,-0.1218,0.1743,-15.8478,14.9694,-19.6542,1,19
7,"test3","",SWIPE,240.28,891.64,726.28,682.64,1784893149197,1204,0.9474,1.0000,0.00,0.00,0.0000,0.00,0.00,0.00,539.49,6593.39,0.11121751,0.0347,3.7035,8.9252,-0.029169,0.023976,-0.008247,0.0694,3.7410,9.0684,-0.0347,-0.0375,-0.1432,-15.4086,15.9332,-17.2752,1,19
6,"test3","",SWIPE,571.28,875.64,152.28,395.64,1784893146801,1248,0.9474,1.0000,0.00,0.00,0.0000,0.00,0.00,0.00,638.24,7308.37,0.00179910,-0.1579,3.7280,9.1244,0.024587,0.015577,-0.007941,-0.1033,3.8300,9.0309,-0.0547,-0.1020,0.0936,-15.9942,15.5794,-18.7514,1,19
5,"test3","",SWIPE,375.28,852.64,422.28,224.64,1784893143897,1507,0.9545,1.0000,0.00,0.00,0.0000,0.00,0.00,0.00,631.77,10531.48,0.00060853,-0.1525,3.8423,9.0054,-0.044899,-0.022297,-0.010996,-0.0752,3.8867,9.0069,-0.0774,-0.0444,-0.0015,-16.3480,15.6892,-20.4838,1,22
4,"test3","",SWIPE,650.28,912.64,392.28,376.64,1784893141613,1204,0.9474,1.0000,0.00,0.00,0.0000,0.00,0.00,0.00,595.68,11425.49,0.04876495,-0.0706,3.8423,8.9252,-0.014966,-0.002291,-0.018173,-0.0485,3.9012,9.0008,-0.0221,-0.0590,-0.0756,-15.1890,16.1650,-19.8738,1,19
3,"test3","",SWIPE,422.28,877.64,716.28,582.64,1784893139678,1036,0.9286,1.0000,0.00,0.00,0.0000,0.00,0.00,0.00,417.71,11050.84,0.01123283,-0.1089,3.9135,8.9677,0.009468,0.004429,0.012675,-0.0488,3.8984,9.0020,-0.0601,0.0150,-0.0343,-15.8478,15.5794,-19.1418,1,14
2,"test3","",SWIPE,308.50,827.50,172.50,399.50,1784893137630,967,0.9412,1.0000,0.00,0.00,0.0000,0.00,0.00,0.00,451.24,5355.77,0.00867918,-0.1035,3.8943,8.8534,0.006109,-0.013592,0.037110,-0.0487,3.9222,8.9917,-0.0548,-0.0279,-0.1382,-15.4696,15.9210,-18.6904,1,17
1,"test3","",SWIPE,544.50,874.50,544.50,489.50,1784893135763,970,0.9286,1.0000,0.00,0.00,0.0000,0.00,0.00,0.00,385.00,10522.96,0.00000000,-0.1035,3.9470,8.8917,0.015424,-0.001985,-0.027184,0.0106,3.9442,8.9822,-0.1141,0.0028,-0.0904,-14.4326,16.4578,-17.9096,1,14
