gesture_index,method,target_element,gesture_type,start_x,start_y,end_x,end_y,timestamp_ms,duration_ms,avg_pressure,max_pressure,touch_major,touch_minor,avg_size,max_speed_x,max_speed_y,max_speed,total_distance,max_acceleration,avg_curvature,accel_x,accel_y,accel_z,gyro_x,gyro_y,gyro_z,gravity_x,gravity_y,gravity_z,linear_x,linear_y,linear_z,mag_x,mag_y,mag_z,pointer_count,trajectory_points
54,"","",SWIPE,675.00,1062.00,758.00,534.00,1784892876194,106,0.4323,0.8504,321.00,170.00,0.0824,4629.16,15390.78,16071.88,554.81,3167763.25,0.10704396,-0.4092,3.9320,7.3101,-0.718836,0.077885,-0.018479,-0.2673,4.5133,8.7060,-0.1419,-0.5812,-1.3960,-16.5066,13.2126,-24.7782,1,29
53,"","",SWIPE,668.00,1053.00,707.00,610.00,1784892875819,69,0.4729,0.6850,299.00,149.00,0.0880,3206.04,15846.46,16167.53,486.95,19013918.00,0.03682865,-0.7172,4.5763,7.0337,-0.456316,0.341168,0.309098,-0.3993,4.5068,8.7043,-0.3180,0.0694,-1.6706,-16.6408,13.5054,-25.7908,1,18
52,"","",SWIPE,657.00,987.00,739.00,561.00,1784892875370,85,0.4372,0.7638,290.00,169.00,0.0828,4172.71,14876.17,15450.31,490.91,11828069.00,0.00330953,-0.7161,4.4148,7.5284,-0.164628,-0.026267,0.034972,-0.2877,4.7243,8.5927,-0.4283,-0.3095,-1.0643,-17.8730,11.5046,-28.5724,1,23
51,"","",SWIPE,699.00,1089.00,706.00,609.00,1784892875085,90,0.3898,0.6850,279.00,159.00,0.0785,1369.21,14875.46,14938.34,496.27,3099558.00,0.31540003,-1.0409,3.6616,7.0301,-0.380874,0.273668,0.451735,-0.5782,4.7489,8.5644,-0.4626,-1.0873,-1.5343,-16.7506,12.3586,-25.9494,1,24
50,"","",SWIPE,614.00,984.00,734.00,550.00,1784892874679,90,0.4587,0.7008,253.00,178.00,0.0844,5197.79,10854.95,12035.24,463.72,5084154.50,0.01367020,-0.6012,4.6433,7.6863,-0.547183,0.244346,0.258091,-0.3680,4.6703,8.6191,-0.2332,-0.0270,-0.9328,-16.6774,12.6026,-25.1564,1,24
49,"","",SWIPE,578.00,1010.00,599.00,694.00,1784892874379,95,0.3833,0.6614,273.00,161.00,0.0769,788.07,12142.80,12168.34,318.30,17855548.00,0.06916510,-0.8201,4.1097,7.2036,-0.473421,0.591470,0.483653,-0.5300,4.2594,8.8211,-0.2902,-0.1497,-1.6176,-16.2382,13.0906,-25.9738,1,25
48,"","",SWIPE,598.00,976.00,777.00,516.00,1784892873928,101,0.4477,0.8268,297.00,179.00,0.0829,7572.88,12824.50,14893.49,513.52,8040268.50,0.03065639,-0.7412,4.4016,8.6178,-0.612851,-0.148440,0.265116,-0.6275,4.2222,8.8326,-0.1137,0.1794,-0.2149,-16.4944,12.5904,-25.0710,1,27
47,"","",SWIPE,695.00,1061.00,619.00,724.00,1784892873618,106,0.2455,0.5039,231.00,140.00,0.0617,1535.23,13544.32,13631.05,420.33,6987101.50,0.16905059,-1.0995,3.9009,8.2062,-0.671494,0.202502,0.286954,-0.2499,4.4930,8.7170,-0.8496,-0.5921,-0.5108,-17.2752,11.9072,-23.8022,1,29
46,"","",SWIPE,659.00,937.00,720.00,608.00,1784892873270,58,0.4268,0.6772,279.00,156.00,0.0828,3077.51,14294.85,14622.38,337.77,3804237.25,0.03646548,-0.3314,4.6331,7.4118,-0.416152,0.162796,0.012981,-0.3074,4.7017,8.6044,-0.0240,-0.0686,-1.1926,-16.4822,11.5656,-22.1308,1,15
45,"","",SWIPE,742.00,1127.00,702.00,649.00,1784892872973,95,0.3805,0.6614,270.00,157.00,0.0776,354.12,14839.88,14844.10,496.78,7886061.00,0.07016156,-0.5994,4.3950,7.2245,-0.337656,-0.023824,0.172264,-0.3469,4.6237,8.6451,-0.2525,-0.2287,-1.4205,-16.7506,11.3948,-22.4968,1,25
44,"","",SWIPE,703.00,1107.00,663.00,681.00,1784892871990,63,0.4823,0.7087,306.00,149.00,0.0884,742.07,17067.54,17083.67,436.27,2793054.00,0.00763141,-1.4381,4.0917,7.1671,-0.218995,0.426995,0.386372,-0.6051,4.4540,8.7196,-0.8330,-0.3623,-1.5525,-16.6652,11.3826,-23.9974,1,16
43,"","",SWIPE,745.00,1128.00,672.00,789.00,1784892871523,85,0.3443,0.5984,263.00,147.00,0.0731,2591.72,12543.76,12808.71,350.88,5226302.00,0.00477671,-0.4875,4.8150,7.9633,-0.076969,0.009927,0.038026,-0.3735,4.3413,8.7892,-0.1140,0.4736,-0.8258,-17.6046,12.1024,-24.6440,1,22
42,"","",SWIPE,666.00,956.00,811.00,500.00,1784892870941,106,0.3636,0.5906,222.00,171.00,0.0758,4824.74,11986.77,12921.33,530.21,6945588.00,0.26074049,-1.4435,3.2967,8.6028,-0.497855,0.006567,-0.102320,-0.5225,4.5108,8.6957,-0.9209,-1.2141,-0.0930,-16.9336,10.1748,-22.6676,1,29
41,"","",SWIPE,717.00,1116.00,693.00,709.00,1784892870694,74,0.4311,0.7087,304.00,150.00,0.0826,346.57,15720.75,15724.57,479.59,16974246.00,0.02258742,-1.3220,4.4830,7.9585,-0.401491,0.112705,-0.055589,-0.4290,4.4469,8.7337,-0.8930,0.0361,-0.7752,-16.9580,11.5046,-23.5094,1,20
40,"","",SWIPE,691.00,1032.00,757.00,583.00,1784892870212,90,0.4619,0.7480,287.00,168.00,0.0853,3283.37,13795.30,14180.65,463.04,6969801.00,0.03534067,-1.3340,3.4720,7.9376,-0.004581,-0.317497,-0.004429,-0.3550,4.5052,8.7071,-0.9790,-1.0333,-0.7695,-16.7140,12.2000,-24.4122,1,24
39,"","",SWIPE,704.00,1100.00,705.00,674.00,1784892869949,90,0.4354,0.7244,294.00,159.00,0.0828,649.79,14126.20,14141.14,430.71,10862979.00,0.01474802,-1.2604,3.8477,6.9535,-0.382707,-0.056810,0.057116,-0.3736,4.3634,8.7782,-0.8868,-0.5158,-1.8247,-16.7872,11.1874,-22.2528,1,24
38,"","",SWIPE,648.00,957.00,768.00,554.00,1784892869506,101,0.5698,0.7795,287.00,179.00,0.0942,4285.41,9101.70,10060.10,429.22,2325715.00,0.05351038,-0.8142,3.4152,9.2441,-0.347124,0.025656,0.117286,-0.3534,4.2356,8.8414,-0.4607,-0.8205,0.4026,-17.2996,11.5046,-22.2894,1,27
37,"","",SWIPE,646.00,1075.00,642.00,714.00,1784892869253,85,0.3543,0.5827,260.00,144.00,0.0751,678.63,14197.01,14213.22,441.26,8445175.00,0.09095616,-1.0726,4.5057,7.1318,-0.473268,0.476322,0.183718,-0.5487,4.2556,8.8218,-0.5239,0.2501,-1.6900,-17.2386,10.8580,-22.2040,1,23
36,"","",SWIPE,637.00,846.00,784.00,534.00,1784892868856,74,0.4917,0.7087,253.00,180.00,0.0886,4015.64,8390.90,9302.28,348.33,2497568.25,0.00356340,-1.2293,3.4158,8.9755,-0.187230,-0.018021,0.039095,-0.2894,4.4701,8.7276,-0.9399,-1.0543,0.2479,-17.0556,10.7360,-22.0088,1,20
35,"","",SWIPE,589.00,1106.00,646.00,690.00,1784892868587,85,0.5390,0.6850,273.00,162.00,0.0929,3008.55,12187.32,12553.17,428.13,3642564.00,0.01460608,-1.2520,4.0164,8.9432,-1.129337,0.561538,0.217010,-0.4715,4.0749,8.9112,0.2317,0.6393,-0.8186,-16.7628,12.2854,-22.9238,1,22
34,"","",SWIPE,704.00,1071.00,727.00,631.00,1784892867692,101,0.4164,0.8031,324.00,158.00,0.0803,932.63,16120.41,16147.37,448.33,2997866.00,0.07256272,0.0837,4.9902,7.8670,-0.565967,0.292146,0.152564,-0.1276,4.8048,8.5518,0.2114,0.1854,-0.6848,-17.7144,10.1138,-21.5208,1,27
33,"","",SWIPE,685.00,1033.00,733.00,615.00,1784892867395,64,0.5049,0.7559,300.00,162.00,0.0894,2367.69,16118.07,16291.04,425.09,3826357.50,0.01638800,-0.8189,4.7593,8.9139,-0.329409,0.009927,0.093004,-0.3667,4.8757,8.5046,-0.4522,-0.1164,0.4092,-16.1772,10.5042,-22.7286,1,16
32,"","",SWIPE,679.00,1013.00,771.00,564.00,1784892866967,85,0.4331,0.7795,308.00,163.00,0.0823,3766.86,14039.26,14535.82,467.77,3023120.25,0.00725987,-0.6885,4.5918,8.7188,-0.128282,0.131947,-0.018937,-0.6954,4.7786,8.5392,0.0069,-0.1868,0.1797,-15.8966,10.1260,-24.5464,1,23
31,"","",SWIPE,678.00,1097.00,678.00,718.00,1784892866708,79,0.4038,0.7008,298.00,151.00,0.0808,27.16,13551.23,13551.26,382.93,5972642.00,0.13578336,-1.1976,4.1157,7.8873,-0.217926,0.107360,0.176540,-0.6436,4.7201,8.5757,-0.5540,-0.6045,-0.6883,-16.0674,9.7966,-22.7286,1,21
30,"","",SWIPE,651.00,966.00,728.00,592.00,1784892866292,84,0.4091,0.6457,247.00,168.00,0.0794,3052.96,13125.42,13475.80,388.56,3068155.75,0.25616309,-0.7615,4.1773,8.6608,-0.070402,-0.045357,-0.021075,-0.6154,4.7535,8.5593,-0.1461,-0.5763,0.1015,-16.4212,9.7600,-22.4968,1,23
29,"","",SWIPE,651.00,1051.00,667.00,701.00,1784892866038,69,0.4291,0.6457,276.00,150.00,0.0825,892.71,13745.17,13774.13,353.18,7314429.50,0.01307155,-1.3962,4.3633,7.4255,-0.040775,-0.153174,0.036499,-0.8710,4.8673,8.4727,-0.5252,-0.5040,-1.0472,-15.2378,9.5770,-24.6196,1,18
28,"","",SWIPE,620.00,920.00,796.00,510.00,1784892865597,68,0.6553,0.7480,267.00,180.00,0.1023,6283.22,9854.68,11687.33,464.56,3365544.75,0.02020548,-0.3990,4.6056,8.3204,0.049327,0.089492,0.111330,-0.7394,4.9218,8.4537,0.3404,-0.3163,-0.1332,-14.8230,9.7600,-21.4110,1,18
27,"","",SWIPE,601.00,1017.00,704.00,607.00,1784892865309,78,0.5448,0.7638,290.00,168.00,0.0928,4114.16,13064.68,13697.16,456.85,7096726.00,0.08857848,-1.1659,3.8201,8.0632,-0.350331,0.170890,0.383776,-0.9202,4.5701,8.6316,-0.2457,-0.7499,-0.5683,-17.2142,9.5648,-30.0730,1,21
26,"","",SWIPE,580.00,998.00,704.00,549.00,1784892864961,106,0.3858,0.5748,227.00,165.00,0.0773,5567.34,11449.61,12731.42,493.06,8378615.00,0.05231364,-0.7908,4.1384,7.8562,-0.314596,-0.218384,0.639881,-1.1193,4.5634,8.6115,0.3285,-0.4250,-0.7553,-14.8718,8.9060,-23.5460,1,28
25,"","",SWIPE,686.00,1160.00,654.00,673.00,1784892864695,85,0.4718,0.6299,261.00,156.00,0.0870,2685.59,13418.75,13684.86,546.48,7619244.00,0.07083742,-1.3675,5.0536,6.0185,-0.184481,0.230907,1.286788,-1.4887,4.4951,8.5915,0.1212,0.5585,-2.5729,-13.5786,8.7474,-24.1804,1,23
24,"","",SWIPE,671.00,1076.00,717.00,689.00,1784892864066,85,0.5063,0.7953,304.00,171.00,0.0873,2385.02,15394.43,15578.08,461.22,14259804.00,0.13946514,-0.5515,4.6917,8.2199,-0.041233,-0.179136,0.365603,-0.3179,4.4226,8.7508,-0.2337,0.2691,-0.5308,-16.9214,11.2972,-23.1190,1,23
23,"","",SWIPE,712.00,1139.00,724.00,807.00,1784892863811,58,0.4383,0.6299,262.00,155.00,0.0833,1239.94,15932.48,15980.66,337.51,7097394.50,0.31566116,0.5390,4.6128,8.4251,-0.195324,0.103542,0.263283,-0.5222,4.4416,8.7313,1.0612,0.1712,-0.3062,-15.2866,12.1268,-22.4114,1,15
22,"","",SWIPE,734.00,1118.00,792.00,725.00,1784892863462,68,0.4368,0.7087,271.00,169.00,0.0827,3034.42,14376.19,14692.94,462.31,15223153.00,0.01794283,-1.9741,3.3930,8.4580,-0.119730,-0.423940,0.019395,-0.3733,4.7718,8.5631,-1.6008,-1.3788,-0.1051,-16.5066,10.2968,-22.9970,1,19
21,"","",SWIPE,731.00,1158.00,711.00,823.00,1784892863187,80,0.3193,0.6142,282.00,141.00,0.0715,1035.32,12389.52,12432.70,341.51,4331129.00,0.03974161,-1.5458,4.2018,7.5290,0.039554,-0.011301,0.286649,-0.4932,4.4752,8.7158,-1.0526,-0.2734,-1.1868,-15.7258,11.3338,-23.2410,1,20
20,"","",SWIPE,683.00,1097.00,804.00,687.00,1784892862872,68,0.4628,0.8425,296.00,183.00,0.0853,4862.16,14366.45,15166.92,440.13,2405660.00,0.00376811,-0.8261,3.4487,9.6299,-0.237016,-0.082772,0.238848,-0.2731,4.4711,8.7276,-0.5531,-1.0224,0.9023,-15.7014,11.3338,-22.1552,1,18
19,"","",SWIPE,696.00,1140.00,721.00,731.00,1784892862577,95,0.3792,0.6850,263.00,168.00,0.0764,1298.76,15299.39,15354.41,425.64,5510989.00,0.50757790,-1.1013,3.3290,8.1864,-0.085216,-0.179289,0.148440,-0.4440,4.1846,8.8616,-0.6573,-0.8556,-0.6751,-16.1406,11.7242,-23.3020,1,25
18,"","",SWIPE,652.00,1027.00,751.00,714.00,1784892862213,74,0.4110,0.7323,276.00,170.00,0.0803,3933.16,12383.92,12993.51,333.85,3177995.25,0.15481123,-1.1635,3.3679,9.1143,0.041844,-0.231212,-0.077274,-0.2957,4.3399,8.7928,-0.8678,-0.9720,0.3214,-16.9702,11.3826,-22.6798,1,20
17,"","",SWIPE,675.00,1085.00,691.00,768.00,1784892861965,74,0.3697,0.6535,278.00,151.00,0.0753,601.93,12611.25,12625.61,320.23,16958030.00,0.03478867,-0.5719,3.9284,8.0094,0.101709,-0.120493,0.271530,-0.3627,4.3167,8.8018,-0.2091,-0.3882,-0.7924,-16.8360,10.9556,-22.4114,1,19
16,"","",SWIPE,659.00,1066.00,752.00,722.00,1784892861649,85,0.5563,0.8189,285.00,184.00,0.0930,3927.20,11700.48,12341.97,370.07,7208374.50,0.07738438,-0.8734,3.5432,8.6351,-0.037110,-0.225867,0.017868,-0.3858,4.5519,8.6815,-0.4876,-1.0087,-0.0464,-16.9214,10.5896,-23.6558,1,23
15,"","",SWIPE,682.00,1156.00,716.00,752.00,1784892861395,73,0.5236,0.7874,297.00,171.00,0.0909,1354.64,15079.93,15140.65,416.43,4385721.50,0.00385054,-1.3113,4.0881,9.2243,-0.409127,-0.012523,0.236252,-0.2589,4.5617,8.6810,-1.0524,-0.4735,0.5433,-16.3236,10.7970,-21.2524,1,20
14,"","",SWIPE,655.00,1091.00,684.00,788.00,1784892860945,47,0.5039,0.6378,258.00,159.00,0.0901,2162.18,16243.75,16387.02,309.01,5351951.00,0.03644186,0.3302,4.2796,7.9340,0.000611,0.157451,0.385456,-0.2955,4.6022,8.6585,0.6257,-0.3226,-0.7245,-15.6648,11.0532,-19.9714,1,12
13,"","",SWIPE,680.00,1102.00,741.00,739.00,1784892860631,74,0.4161,0.7402,290.00,164.00,0.0811,2523.27,14427.12,14646.12,376.12,8151878.50,0.03331575,0.1382,4.1174,7.9370,-0.098807,-0.246331,0.239459,-0.2213,4.4052,8.7625,0.3595,-0.2878,-0.8255,-17.2020,11.0776,-21.6550,1,20
12,"","",SWIPE,684.00,1122.00,703.00,803.00,1784892860313,74,0.4231,0.7244,285.00,165.00,0.0815,629.26,12689.03,12704.62,324.35,2697851.00,0.02106730,-1.2305,3.3577,8.1817,0.011606,0.031307,0.074984,-0.3196,4.5031,8.7095,-0.9109,-1.1454,-0.5279,-18.2024,9.4550,-25.9494,1,19
11,"","",SWIPE,689.00,1137.00,710.00,773.00,1784892860033,79,0.3945,0.6850,273.00,162.00,0.0782,1260.08,13508.48,13567.13,378.63,1450841.50,0.15535583,-0.6736,4.1061,9.1519,-0.080787,-0.195019,0.371101,-0.2707,4.4901,8.7179,-0.4029,-0.3840,0.4340,-16.2992,11.2484,-22.6310,1,21
10,"","",SWIPE,669.00,1103.00,734.00,723.00,1784892859733,85,0.4445,0.7717,284.00,174.00,0.0830,2640.25,14213.26,14456.41,396.12,9291800.00,0.07500014,-0.1298,3.9655,7.7928,-0.252746,0.158978,0.351095,-0.2092,4.5722,8.6768,0.0794,-0.6067,-0.8840,-16.8970,10.6384,-21.4842,1,22
9,"","",SWIPE,652.00,1107.00,679.00,758.00,1784892859464,79,0.3593,0.6457,286.00,145.00,0.0757,1437.86,15662.77,15728.63,442.88,18769666.00,0.03551858,-0.5809,3.5468,7.7850,-0.049327,0.036652,0.309403,-0.3042,4.5151,8.7039,-0.2766,-0.9683,-0.9188,-16.6286,10.7238,-21.3012,1,22
8,"","",SWIPE,650.00,1115.00,670.00,795.00,1784892859136,91,0.3668,0.6063,250.00,156.00,0.0763,840.78,11752.43,11782.46,327.10,8385255.00,0.76558763,-0.5420,4.0098,8.6859,-0.264046,0.358425,0.272751,-0.1516,4.6180,8.6537,-0.3904,-0.6082,0.0322,-16.5798,11.1874,-20.8132,1,24
7,"","",SWIPE,604.00,1075.00,630.00,781.00,1784892858851,95,0.3858,0.6299,254.00,158.00,0.0782,1511.01,13276.38,13362.08,339.75,25537940.00,0.11338148,-0.0191,3.7663,9.2925,-0.171959,0.372322,0.326049,-0.2079,4.3813,8.7748,0.1887,-0.6150,0.5177,-16.6408,12.7124,-23.1312,1,27
6,"","",SWIPE,628.00,1149.00,695.00,719.00,1784892858534,74,0.4898,0.7087,272.00,167.00,0.0878,3351.80,14529.70,14911.30,446.73,2950968.50,0.01187752,-0.4140,5.2600,9.5121,-0.180511,0.023671,0.534965,-0.3483,4.2911,8.8148,-0.0656,0.9689,0.6973,-16.4212,12.0902,-21.8868,1,19
5,"","",SWIPE,601.00,1153.00,574.00,866.00,1784892858116,52,0.4038,0.5276,247.00,144.00,0.0804,549.45,16678.09,16687.14,371.62,16645158.00,0.45619586,-0.6173,2.6841,8.7308,-0.616210,0.728457,1.351387,-0.5329,4.3433,8.7800,-0.0845,-1.6592,-0.0492,-16.0186,11.0898,-21.8624,1,14
4,"","",SWIPE,580.00,1059.00,646.00,732.00,1784892857810,58,0.4769,0.6378,261.00,160.00,0.0868,4371.39,15901.76,16491.66,426.02,18316754.00,0.01203088,-1.3591,4.9837,7.8987,0.317039,0.186619,0.450666,-0.4460,4.7015,8.5984,-0.9131,0.2821,-0.6997,-15.2622,13.1882,-23.2288,1,16
3,"","",SWIPE,600.00,1093.00,679.00,790.00,1784892857455,96,0.4296,0.7402,288.00,165.00,0.0814,2889.34,11317.70,11680.69,316.91,4601269.50,0.05899733,-0.7597,3.7190,8.0656,0.011912,0.132405,0.348346,-0.4227,4.2457,8.8335,-0.3370,-0.5266,-0.7679,-15.5672,13.8592,-22.7408,1,23
2,"","",SWIPE,615.00,1122.00,648.00,841.00,1784892857112,68,0.4309,0.6063,251.00,156.00,0.0826,1812.78,12145.50,12280.04,341.01,13947474.00,0.00332085,-1.5290,3.8536,7.7767,0.063225,0.378889,0.451888,-0.6470,4.6000,8.6404,-0.8820,-0.7464,-0.8638,-15.7258,12.1512,-23.0214,1,18
1,"","",SWIPE,678.00,1186.00,710.00,801.00,1784892856677,69,0.4493,0.6929,281.00,158.00,0.0842,1610.92,14766.36,14853.97,391.80,2922191.00,0.05658214,0.3057,5.0195,9.1777,-0.103084,-0.000458,-0.141873,-0.0529,4.6635,8.6305,0.3586,0.3561,0.5472,-16.4334,12.4684,-20.2276,1,15
